Wavelength(nm),PHATh
341.409,0.474
341.79,0.444
342.17,0.445
342.55,0.436
342.931,0.436
343.311,0.441
343.691,0.448
344.071,0.448
344.451,0.458
344.831,0.465
345.211,0.475
345.591,0.476
345.971,0.479
346.351,0.483
346.731,0.487
347.111,0.491
347.49,0.496
347.87,0.502
348.25,0.505
348.629,0.508
349.009,0.512
349.389,0.515
349.768,0.52
350.147,0.522
350.527,0.528
350.906,0.532
351.286,0.538
351.665,0.544
352.044,0.55
352.423,0.554
352.802,0.56
353.182,0.565
353.561,0.57
353.94,0.573
354.319,0.578
354.698,0.582
355.077,0.585
355.455,0.589
355.834,0.594
356.213,0.598
356.592,0.603
356.971,0.607
357.349,0.615
357.728,0.623
358.106,0.633
358.485,0.641
358.863,0.649
359.242,0.657
359.62,0.666
359.999,0.673
360.377,0.679
360.755,0.686
361.133,0.694
361.512,0.702
361.89,0.71
362.268,0.718
362.646,0.726
363.024,0.732
363.402,0.737
363.78,0.744
364.158,0.752
364.536,0.759
364.914,0.766
365.291,0.773
365.669,0.78
366.047,0.788
366.424,0.796
366.802,0.804
367.18,0.809
367.557,0.816
367.935,0.824
368.312,0.83
368.689,0.837
369.067,0.846
369.444,0.855
369.821,0.862
370.198,0.869
370.576,0.878
370.953,0.885
371.33,0.892
371.707,0.901
372.084,0.908
372.461,0.917
372.838,0.926
373.215,0.936
373.592,0.943
373.968,0.951
374.345,0.96
374.722,0.966
375.098,0.974
375.475,0.982
375.852,0.99
376.228,0.998
376.605,1.005
376.981,1.011
377.358,1.019
377.734,1.025
378.11,1.032
378.487,1.04
378.863,1.05
379.239,1.06
379.615,1.066
379.991,1.075
380.367,1.084
380.743,1.091
381.119,1.099
381.495,1.107
381.871,1.115
382.247,1.121
382.623,1.13
382.999,1.136
383.374,1.144
383.75,1.153
384.126,1.16
384.501,1.167
384.877,1.175
385.252,1.181
385.628,1.19
386.003,1.196
386.379,1.205
386.754,1.212
387.129,1.22
387.505,1.231
387.88,1.236
388.255,1.241
388.63,1.246
389.005,1.254
389.38,1.261
389.755,1.269
390.13,1.277
390.505,1.285
390.88,1.291
391.255,1.3
391.63,1.307
392.005,1.316
392.379,1.324
392.754,1.331
393.129,1.339
393.503,1.347
393.878,1.355
394.252,1.361
394.627,1.365
395.001,1.373
395.375,1.379
395.75,1.383
396.124,1.39
396.498,1.395
396.872,1.403
397.247,1.409
397.621,1.415
397.995,1.423
398.369,1.43
398.743,1.438
399.117,1.444
399.491,1.451
399.864,1.457
400.238,1.464
400.612,1.471
400.986,1.478
401.359,1.486
401.733,1.491
402.107,1.498
402.48,1.503
402.854,1.508
403.227,1.516
403.601,1.523
403.974,1.528
404.347,1.535
404.721,1.543
405.094,1.548
405.467,1.552
405.84,1.558
406.213,1.566
406.586,1.569
406.959,1.575
407.332,1.58
407.705,1.586
408.078,1.593
408.451,1.597
408.824,1.603
409.197,1.609
409.569,1.614
409.942,1.619
410.315,1.625
410.687,1.631
411.06,1.639
411.432,1.644
411.805,1.65
412.177,1.652
412.55,1.657
412.922,1.662
413.294,1.667
413.667,1.671
414.039,1.676
414.411,1.679
414.783,1.683
415.155,1.686
415.527,1.689
415.899,1.694
416.271,1.699
416.643,1.702
417.015,1.707
417.387,1.71
417.759,1.713
418.13,1.716
418.502,1.72
418.874,1.723
419.245,1.726
419.617,1.726
419.988,1.726
420.36,1.724
420.731,1.727
421.103,1.725
421.474,1.724
421.845,1.723
422.217,1.72
422.588,1.715
422.959,1.71
423.33,1.704
423.701,1.697
424.072,1.689
424.443,1.678
424.814,1.667
425.185,1.655
425.556,1.641
425.927,1.626
426.298,1.609
426.668,1.593
427.039,1.576
427.41,1.557
427.78,1.538
428.151,1.518
428.521,1.498
428.892,1.477
429.262,1.455
429.633,1.434
430.003,1.413
430.373,1.392
430.744,1.371
431.114,1.349
431.484,1.327
431.854,1.306
432.224,1.284
432.594,1.264
432.964,1.243
433.334,1.223
433.704,1.204
434.074,1.184
434.444,1.165
434.814,1.147
435.183,1.128
435.553,1.111
435.923,1.093
436.292,1.076
436.662,1.059
437.031,1.042
437.401,1.027
437.77,1.011
438.14,0.996
438.509,0.981
438.878,0.966
439.248,0.952
439.617,0.938
439.986,0.924
440.355,0.911
440.724,0.898
441.093,0.885
441.462,0.873
441.831,0.861
442.2,0.849
442.569,0.838
442.938,0.826
443.307,0.815
443.675,0.804
444.044,0.794
444.413,0.784
444.781,0.774
445.15,0.764
445.518,0.754
445.887,0.745
446.255,0.736
446.624,0.727
446.992,0.718
447.36,0.71
447.728,0.702
448.097,0.694
448.465,0.686
448.833,0.678
449.201,0.67
449.569,0.663
449.937,0.655
450.305,0.648
450.673,0.641
451.041,0.634
451.409,0.628
451.776,0.621
452.144,0.615
452.512,0.608
452.879,0.602
453.247,0.596
453.614,0.59
453.982,0.584
454.349,0.578
454.717,0.572
455.084,0.567
455.452,0.561
455.819,0.555
456.186,0.55
456.553,0.545
456.92,0.54
457.288,0.535
457.655,0.53
458.022,0.525
458.389,0.52
458.756,0.515
459.122,0.51
459.489,0.505
459.856,0.501
460.223,0.496
460.59,0.491
460.956,0.487
461.323,0.482
461.689,0.478
462.056,0.473
462.422,0.469
462.789,0.464
463.155,0.46
463.522,0.456
463.888,0.452
464.254,0.447
464.62,0.443
464.987,0.439
465.353,0.435
465.719,0.431
466.085,0.427
466.451,0.423
466.817,0.419
467.183,0.415
467.549,0.411
467.915,0.407
468.28,0.403
468.646,0.399
469.012,0.396
469.377,0.392
469.743,0.388
470.109,0.384
470.474,0.381
470.84,0.377
471.205,0.374
471.57,0.37
471.936,0.367
472.301,0.364
472.666,0.36
473.031,0.357
473.397,0.354
473.762,0.35
474.127,0.347
474.492,0.344
474.857,0.341
475.222,0.338
475.587,0.336
475.952,0.333
476.316,0.33
476.681,0.327
477.046,0.324
477.411,0.322
477.775,0.319
478.14,0.316
478.504,0.314
478.869,0.312
479.233,0.309
479.598,0.307
479.962,0.305
480.326,0.303
480.691,0.3
481.055,0.298
481.419,0.296
481.783,0.294
482.147,0.293
482.511,0.291
482.875,0.289
483.239,0.287
483.603,0.285
483.967,0.284
484.331,0.282
484.695,0.28
485.058,0.279
485.422,0.277
485.786,0.276
486.149,0.275
486.513,0.273
486.877,0.272
487.24,0.271
487.603,0.27
487.967,0.269
488.33,0.268
488.693,0.267
489.057,0.266
489.42,0.265
489.783,0.264
490.146,0.263
490.509,0.262
490.872,0.262
491.235,0.261
491.598,0.26
491.961,0.26
492.324,0.259
492.687,0.259
493.05,0.259
493.412,0.258
493.775,0.258
494.138,0.258
494.5,0.257
494.863,0.257
495.225,0.257
495.588,0.257
495.95,0.257
496.312,0.257
496.675,0.257
497.037,0.258
497.399,0.258
497.761,0.258
498.123,0.258
498.486,0.259
498.848,0.259
499.21,0.259
499.572,0.26
499.933,0.26
500.295,0.261
500.657,0.262
501.019,0.262
501.381,0.263
501.742,0.264
502.104,0.264
502.466,0.265
502.827,0.266
503.189,0.267
503.55,0.268
503.911,0.269
504.273,0.27
504.634,0.272
504.995,0.273
505.357,0.274
505.718,0.276
506.079,0.277
506.44,0.278
506.801,0.28
507.162,0.282
507.523,0.283
507.884,0.285
508.245,0.286
508.606,0.288
508.967,0.29
509.327,0.292
509.688,0.294
510.049,0.296
510.409,0.298
510.77,0.3
511.13,0.302
511.491,0.304
511.851,0.306
512.212,0.308
512.572,0.311
512.932,0.313
513.293,0.315
513.653,0.318
514.013,0.321
514.373,0.323
514.733,0.326
515.093,0.329
515.453,0.331
515.813,0.334
516.173,0.337
516.533,0.34
516.892,0.343
517.252,0.346
517.612,0.349
517.972,0.352
518.331,0.355
518.691,0.358
519.05,0.361
519.41,0.365
519.769,0.368
520.129,0.371
520.488,0.375
520.847,0.378
521.206,0.381
521.566,0.385
521.925,0.389
522.284,0.392
522.643,0.396
523.002,0.399
523.361,0.403
523.72,0.407
524.079,0.411
524.438,0.415
524.797,0.418
525.155,0.422
525.514,0.426
525.873,0.43
526.231,0.434
526.59,0.438
526.948,0.442
527.307,0.447
527.665,0.451
528.024,0.455
528.382,0.46
528.74,0.464
529.099,0.468
529.457,0.473
529.815,0.477
530.173,0.482
530.531,0.486
530.889,0.491
531.247,0.495
531.605,0.5
531.963,0.505
532.321,0.51
532.679,0.515
533.036,0.519
533.394,0.524
533.752,0.529
534.109,0.534
534.467,0.539
534.824,0.544
535.182,0.549
535.539,0.554
535.897,0.559
536.254,0.565
536.611,0.57
536.969,0.575
537.326,0.58
537.683,0.586
538.04,0.591
538.397,0.596
538.754,0.602
539.111,0.607
539.468,0.612
539.825,0.618
540.182,0.624
540.539,0.629
540.895,0.635
541.252,0.64
541.609,0.646
541.965,0.652
542.322,0.657
542.678,0.663
543.035,0.669
543.391,0.674
543.748,0.68
544.104,0.686
544.46,0.692
544.817,0.698
545.173,0.704
545.529,0.71
545.885,0.716
546.241,0.721
546.597,0.727
546.953,0.733
547.309,0.739
547.665,0.745
548.021,0.751
548.377,0.757
548.732,0.763
549.088,0.769
549.444,0.775
549.799,0.781
550.155,0.787
550.51,0.794
550.866,0.8
551.221,0.806
551.577,0.812
551.932,0.818
552.287,0.824
552.643,0.83
552.998,0.837
553.353,0.843
553.708,0.849
554.063,0.856
554.418,0.862
554.773,0.868
555.128,0.874
555.483,0.88
555.838,0.887
556.192,0.893
556.547,0.899
556.902,0.905
557.257,0.911
557.611,0.918
557.966,0.924
558.32,0.93
558.675,0.936
559.029,0.942
559.383,0.948
559.738,0.955
560.092,0.961
560.446,0.967
560.8,0.973
561.155,0.979
561.509,0.985
561.863,0.991
562.217,0.997
562.571,1.003
562.925,1.01
563.278,1.016
563.632,1.022
563.986,1.028
564.34,1.034
564.693,1.04
565.047,1.046
565.401,1.052
565.754,1.058
566.108,1.064
566.461,1.07
566.815,1.075
567.168,1.081
567.521,1.087
567.874,1.093
568.228,1.098
568.581,1.104
568.934,1.11
569.287,1.116
569.64,1.122
569.993,1.127
570.346,1.133
570.699,1.139
571.052,1.144
571.405,1.15
571.757,1.155
572.11,1.161
572.463,1.167
572.815,1.172
573.168,1.178
573.52,1.184
573.873,1.189
574.225,1.195
574.578,1.2
574.93,1.206
575.282,1.211
575.635,1.217
575.987,1.222
576.339,1.228
576.691,1.233
577.043,1.239
577.395,1.244
577.747,1.25
578.099,1.255
578.451,1.26
578.803,1.265
579.154,1.271
579.506,1.276
579.858,1.281
580.209,1.287
580.561,1.292
580.913,1.297
581.264,1.303
581.616,1.308
581.967,1.313
582.318,1.319
582.67,1.324
583.021,1.329
583.372,1.334
583.723,1.339
584.074,1.344
584.426,1.35
584.777,1.355
585.128,1.36
585.479,1.365
585.829,1.37
586.18,1.375
586.531,1.38
586.882,1.385
587.233,1.39
587.583,1.395
587.934,1.4
588.284,1.405
588.635,1.41
588.985,1.415
589.336,1.42
589.686,1.425
590.037,1.43
590.387,1.434
590.737,1.439
591.087,1.444
591.437,1.448
591.788,1.453
592.138,1.457
592.488,1.462
592.838,1.467
593.188,1.471
593.537,1.475
593.887,1.48
594.237,1.484
594.587,1.488
594.936,1.492
595.286,1.496
595.636,1.5
595.985,1.504
596.335,1.508
596.684,1.512
597.034,1.516
597.383,1.519
597.732,1.523
598.081,1.527
598.431,1.53
598.78,1.533
599.129,1.537
599.478,1.54
599.827,1.543
600.176,1.546
600.525,1.549
600.874,1.552
601.223,1.555
601.572,1.558
601.92,1.561
602.269,1.564
602.618,1.567
602.966,1.569
603.315,1.571
603.663,1.573
604.012,1.575
604.36,1.577
604.709,1.58
605.057,1.582
605.405,1.584
605.753,1.586
606.102,1.588
606.45,1.59
606.798,1.591
607.146,1.593
607.494,1.595
607.842,1.596
608.19,1.597
608.538,1.598
608.885,1.6
609.233,1.601
609.581,1.602
609.929,1.603
610.276,1.604
610.624,1.605
610.971,1.606
611.319,1.606
611.666,1.607
612.014,1.607
612.361,1.608
612.708,1.608
613.056,1.608
613.403,1.609
613.75,1.609
614.097,1.609
614.444,1.609
614.791,1.609
615.138,1.609
615.485,1.609
615.832,1.608
616.179,1.608
616.525,1.608
616.872,1.607
617.219,1.607
617.566,1.606
617.912,1.606
618.259,1.605
618.605,1.605
618.952,1.604
619.298,1.603
619.644,1.603
619.991,1.602
620.337,1.601
620.683,1.6
621.029,1.599
621.375,1.599
621.721,1.598
622.067,1.597
622.413,1.596
622.759,1.595
623.105,1.594
623.451,1.593
623.797,1.593
624.143,1.592
624.488,1.591
624.834,1.59
625.18,1.589
625.525,1.588
625.871,1.587
626.216,1.586
626.561,1.585
626.907,1.584
627.252,1.583
627.597,1.582
627.943,1.581
628.288,1.58
628.633,1.579
628.978,1.579
629.323,1.578
629.668,1.577
630.013,1.576
630.358,1.576
630.703,1.575
631.047,1.574
631.392,1.573
631.737,1.573
632.082,1.572
632.426,1.571
632.771,1.57
633.115,1.569
633.46,1.569
633.804,1.568
634.148,1.567
634.493,1.567
634.837,1.566
635.181,1.565
635.525,1.565
635.87,1.564
636.214,1.564
636.558,1.563
636.902,1.563
637.246,1.562
637.589,1.562
637.933,1.561
638.277,1.56
638.621,1.56
638.965,1.559
639.308,1.559
639.652,1.558
639.995,1.558
640.339,1.557
640.682,1.557
641.026,1.556
641.369,1.556
641.712,1.556
642.056,1.555
642.399,1.555
642.742,1.554
643.085,1.554
643.428,1.553
643.771,1.552
644.114,1.551
644.457,1.551
644.8,1.55
645.143,1.549
645.486,1.548
645.828,1.547
646.171,1.546
646.514,1.545
646.856,1.544
647.199,1.543
647.541,1.542
647.884,1.541
648.226,1.539
648.569,1.538
648.911,1.536
649.253,1.535
649.596,1.533
649.938,1.531
650.28,1.53
650.622,1.528
650.964,1.526
651.306,1.523
651.648,1.521
651.99,1.519
652.332,1.516
652.673,1.514
653.015,1.511
653.357,1.508
653.698,1.505
654.04,1.501
654.382,1.498
654.723,1.495
655.065,1.491
655.406,1.487
655.747,1.483
656.089,1.478
656.43,1.474
656.771,1.47
657.112,1.465
657.453,1.46
657.794,1.455
658.135,1.45
658.476,1.444
658.817,1.439
659.158,1.433
659.499,1.427
659.84,1.421
660.181,1.415
660.521,1.408
660.862,1.402
661.202,1.395
661.543,1.388
661.883,1.38
662.224,1.373
662.564,1.365
662.905,1.358
663.245,1.349
663.585,1.341
663.925,1.333
664.266,1.324
664.606,1.315
664.946,1.306
665.286,1.297
665.626,1.288
665.966,1.278
666.306,1.269
666.645,1.259
666.985,1.249
667.325,1.239
667.665,1.229
668.004,1.219
668.344,1.208
668.683,1.198
669.023,1.187
669.362,1.176
669.702,1.166
670.041,1.155
670.38,1.144
670.719,1.133
671.059,1.122
671.398,1.111
671.737,1.099
672.076,1.088
672.415,1.076
672.754,1.065
673.093,1.053
673.432,1.042
673.77,1.03
674.109,1.018
674.448,1.007
674.787,0.995
675.125,0.983
675.464,0.972
675.802,0.96
676.141,0.948
676.479,0.936
676.818,0.925
677.156,0.913
677.494,0.902
677.832,0.89
678.171,0.879
678.509,0.867
678.847,0.856
679.185,0.844
679.523,0.833
679.861,0.822
680.199,0.81
680.536,0.799
680.874,0.788
681.212,0.777
681.55,0.766
681.887,0.755
682.225,0.744
682.562,0.733
682.9,0.722
683.237,0.712
683.575,0.701
683.912,0.691
684.249,0.68
684.587,0.67
684.924,0.66
685.261,0.65
685.598,0.64
685.935,0.63
686.272,0.621
686.609,0.611
686.946,0.602
687.283,0.593
687.62,0.583
687.957,0.574
688.293,0.565
688.63,0.556
688.967,0.547
689.303,0.539
689.64,0.53
689.976,0.522
690.313,0.513
690.649,0.505
690.985,0.497
691.322,0.489
691.658,0.481
691.994,0.474
692.33,0.466
692.666,0.459
693.002,0.451
693.338,0.444
693.674,0.437
694.01,0.43
694.346,0.423
694.682,0.416
695.018,0.41
695.353,0.403
695.689,0.397
696.025,0.391
696.36,0.385
696.696,0.378
697.031,0.372
697.366,0.367
697.702,0.361
698.037,0.356
698.372,0.35
698.708,0.344
699.043,0.339
699.378,0.334
699.713,0.329
700.048,0.324
700.383,0.319
700.718,0.314
701.053,0.31
701.388,0.305
701.722,0.301
702.057,0.296
702.392,0.292
702.726,0.288
703.061,0.284
703.395,0.28
703.73,0.276
704.064,0.272
704.399,0.268
704.733,0.265
705.067,0.261
705.402,0.258
705.736,0.254
706.07,0.251
706.404,0.248
706.738,0.245
707.072,0.242
707.406,0.239
707.74,0.236
708.074,0.233
708.408,0.231
708.741,0.228
709.075,0.225
709.409,0.223
709.742,0.22
710.076,0.218
710.409,0.215
710.743,0.213
711.076,0.211
711.409,0.208
711.743,0.206
712.076,0.204
712.409,0.202
712.742,0.2
713.075,0.198
713.409,0.196
713.742,0.194
714.075,0.192
714.407,0.19
714.74,0.188
715.073,0.187
715.406,0.185
715.739,0.184
716.071,0.182
716.404,0.181
716.736,0.179
717.069,0.178
717.401,0.176
717.734,0.175
718.066,0.174
718.399,0.173
718.731,0.171
719.063,0.17
719.395,0.169
719.727,0.167
720.059,0.166
720.391,0.165
720.723,0.164
721.055,0.163
721.387,0.162
721.719,0.161
722.051,0.16
722.383,0.159
722.714,0.159
723.046,0.158
723.377,0.157
723.709,0.156
724.04,0.156
724.372,0.155
724.703,0.154
725.035,0.153
725.366,0.153
725.697,0.152
726.028,0.151
726.359,0.15
726.691,0.15
727.022,0.149
727.353,0.149
727.683,0.148
728.014,0.147
728.345,0.147
728.676,0.147
729.007,0.146
729.337,0.146
729.668,0.145
729.999,0.145
730.329,0.144
730.66,0.144
730.99,0.144
731.321,0.143
731.651,0.143
731.981,0.142
732.311,0.142
732.642,0.142
732.972,0.141
733.302,0.141
733.632,0.141
733.962,0.141
734.292,0.14
734.622,0.14
734.952,0.139
735.281,0.139
735.611,0.139
735.941,0.138
736.271,0.138
736.6,0.138
736.93,0.138
737.259,0.138
737.589,0.137
737.918,0.137
738.247,0.137
738.577,0.137
738.906,0.136
739.235,0.136
739.564,0.136
739.893,0.136
740.222,0.136
740.551,0.135
740.88,0.135
741.209,0.135
741.538,0.135
741.867,0.135
742.196,0.134
742.524,0.134
742.853,0.134
743.182,0.133
743.51,0.133
743.839,0.133
744.167,0.133
744.496,0.133
744.824,0.132
745.152,0.132
745.481,0.131
745.809,0.131
746.137,0.131
746.465,0.131
746.793,0.13
747.121,0.13
747.449,0.13
747.777,0.13
748.105,0.13
748.433,0.13
748.76,0.13
749.088,0.13
749.416,0.13
749.743,0.129
750.071,0.129
750.399,0.129
750.726,0.129
751.053,0.129
751.381,0.128
751.708,0.128
752.035,0.128
752.363,0.128
752.69,0.128
753.017,0.128
753.344,0.128
753.671,0.128
753.998,0.128
754.325,0.128
754.652,0.127
754.978,0.127
755.305,0.127
755.632,0.127
755.959,0.128
756.285,0.128
756.612,0.128
756.938,0.129
757.265,0.129
757.591,0.129
757.917,0.129
758.244,0.129
758.57,0.129
758.896,0.13
759.222,0.13
759.549,0.13
759.875,0.13
760.201,0.13
760.527,0.13
760.852,0.13
761.178,0.13
761.504,0.13
761.83,0.129
762.156,0.129
762.481,0.129
762.807,0.129
763.132,0.13
763.458,0.13
763.783,0.13
764.109,0.13
764.434,0.13
764.76,0.13
765.085,0.13
765.41,0.13
765.735,0.13
766.06,0.13
766.385,0.13
766.71,0.13
767.035,0.13
767.36,0.13
767.685,0.13
768.01,0.13
768.335,0.131
768.659,0.13
768.984,0.13
769.309,0.13
769.633,0.13
769.958,0.13
770.282,0.13
770.606,0.13
770.931,0.13
771.255,0.13
771.579,0.13
771.904,0.13
772.228,0.13
772.552,0.13
772.876,0.129
773.2,0.129
773.524,0.129
773.848,0.129
774.172,0.129
774.495,0.13
774.819,0.13
775.143,0.13
775.467,0.13
775.79,0.13
776.114,0.13
776.437,0.13
776.761,0.129
777.084,0.13
777.407,0.129
777.731,0.129
778.054,0.129
778.377,0.129
778.7,0.129
779.023,0.129
779.346,0.129
779.669,0.129
779.992,0.129
780.315,0.13
780.638,0.13
780.961,0.13
781.284,0.13
781.606,0.13
781.929,0.13
782.251,0.13
782.574,0.13
782.896,0.13
783.219,0.13
783.541,0.13
783.864,0.13
784.186,0.13
784.508,0.13
784.83,0.13
785.152,0.13
785.475,0.13
785.797,0.13
786.119,0.13
786.44,0.13
786.762,0.13
787.084,0.131
787.406,0.131
787.728,0.13
788.049,0.13
788.371,0.13
788.693,0.13
789.014,0.13
789.336,0.13
789.657,0.13
789.978,0.13
790.3,0.131
790.621,0.131
790.942,0.131
791.263,0.131
791.584,0.131
791.906,0.131
792.227,0.132
792.547,0.132
792.868,0.132
793.189,0.132
793.51,0.132
793.831,0.132
794.152,0.131
794.472,0.131
794.793,0.131
795.113,0.131
795.434,0.131
795.754,0.132
796.075,0.132
796.395,0.132
796.715,0.132
797.036,0.132
797.356,0.131
797.676,0.131
797.996,0.131
798.316,0.131
798.636,0.131
798.956,0.131
799.276,0.131
799.596,0.131
799.916,0.13
800.235,0.13
800.555,0.13
800.875,0.13
801.194,0.13
801.514,0.13
801.833,0.13
802.153,0.13
802.472,0.13
802.791,0.13
803.111,0.13
803.43,0.13
803.749,0.13
804.068,0.13
804.387,0.13
804.706,0.13
805.025,0.13
805.344,0.13
805.663,0.13
805.982,0.13
806.301,0.13
806.62,0.13
806.938,0.13
807.257,0.13
807.575,0.131
807.894,0.131
808.212,0.131
808.531,0.131
808.849,0.131
809.167,0.131
809.486,0.131
809.804,0.131
810.122,0.131
810.44,0.131
810.758,0.132
811.076,0.132
811.394,0.132
811.712,0.132
812.03,0.133
812.348,0.133
812.666,0.133
812.983,0.133
813.301,0.133
813.618,0.134
813.936,0.134
814.253,0.134
814.571,0.134
814.888,0.134
815.206,0.134
815.523,0.134
815.84,0.134
816.157,0.134
816.475,0.134
816.792,0.134
817.109,0.135
817.426,0.135
817.743,0.135
818.059,0.135
818.376,0.135
818.693,0.135
819.01,0.135
819.326,0.135
819.643,0.135
819.96,0.135
820.276,0.135
820.593,0.135
820.909,0.135
821.225,0.135
821.542,0.135
821.858,0.135
822.174,0.135
822.49,0.135
822.806,0.135
823.122,0.135
823.438,0.135
823.754,0.135
824.07,0.135
824.386,0.136
824.702,0.136
825.018,0.136
825.333,0.136
825.649,0.136
825.965,0.136
826.28,0.136
826.596,0.136
826.911,0.136
827.226,0.136
827.542,0.136
827.857,0.136
828.172,0.136
828.487,0.137
828.803,0.137
829.118,0.137
829.433,0.137
829.748,0.137
830.063,0.137
830.377,0.137
830.692,0.138
831.007,0.138
831.322,0.138
831.636,0.138
831.951,0.139
832.266,0.139
832.58,0.139
832.895,0.139
833.209,0.14
833.523,0.14
833.838,0.14
834.152,0.14
834.466,0.14
834.78,0.14
835.094,0.14
835.408,0.14
835.722,0.141
836.036,0.141
836.35,0.14
836.664,0.141
836.978,0.141
837.291,0.141
837.605,0.141
837.919,0.141
838.232,0.14
838.546,0.141
838.859,0.141
839.173,0.141
839.486,0.141
839.799,0.141
840.113,0.141
840.426,0.141
840.739,0.141
841.052,0.141
841.365,0.141
841.678,0.141
841.991,0.141
842.304,0.141
842.617,0.141
842.93,0.141
843.243,0.14
843.555,0.14
843.868,0.14
844.18,0.141
844.493,0.141
844.805,0.141
845.118,0.141
845.43,0.14
845.743,0.14
846.055,0.14
846.367,0.139
846.679,0.139
846.991,0.14
847.303,0.14
847.615,0.14
847.927,0.14
848.239,0.14
848.551,0.14
848.863,0.141
849.175,0.141
849.486,0.141
849.798,0.141
850.11,0.141
850.421,0.141
850.733,0.141
851.044,0.141
851.356,0.141
851.667,0.141
851.978,0.141
852.289,0.141
852.601,0.142
852.912,0.142
853.223,0.142
853.534,0.142
853.845,0.143
854.156,0.143
854.467,0.143
854.777,0.143
855.088,0.143
855.399,0.144
855.71,0.144
856.02,0.144
856.331,0.144
856.641,0.144
856.952,0.144
857.262,0.144
857.573,0.144
857.883,0.144
858.193,0.144
858.503,0.145
858.813,0.145
859.123,0.145
859.434,0.145
859.743,0.145
860.053,0.145
860.363,0.145
860.673,0.145
860.983,0.145
861.293,0.145
861.602,0.145
861.912,0.146
862.221,0.146
862.531,0.146
862.84,0.146
863.15,0.146
863.459,0.147
863.769,0.147
864.078,0.148
864.387,0.148
864.696,0.148
865.005,0.149
865.314,0.149
865.623,0.149
865.932,0.149
866.241,0.149
866.55,0.149
866.859,0.149
867.167,0.149
867.476,0.148
867.785,0.148
868.093,0.148
868.402,0.148
868.71,0.148
869.019,0.148
869.327,0.148
869.635,0.148
869.944,0.149
870.252,0.149
870.56,0.149
870.868,0.149
871.176,0.149
871.484,0.15
871.792,0.15
872.1,0.15
872.408,0.15
872.715,0.15
873.023,0.15
873.331,0.15
873.638,0.151
873.946,0.151
874.254,0.151
874.561,0.151
874.868,0.151
875.176,0.152
875.483,0.152
875.79,0.152
876.098,0.152
876.405,0.152
876.712,0.152
877.019,0.152
877.326,0.152
877.633,0.153
877.94,0.153
878.246,0.153
878.553,0.153
878.86,0.153
879.167,0.153
879.473,0.153
879.78,0.153
880.086,0.153
880.393,0.154
880.699,0.154
881.006,0.155
881.312,0.155
881.618,0.155
881.924,0.156
882.23,0.156
882.537,0.156
882.843,0.156
883.149,0.156
883.455,0.156
883.76,0.156
884.066,0.156
884.372,0.156
884.678,0.156
884.983,0.157
885.289,0.157
885.595,0.158
885.9,0.158
886.206,0.158
886.511,0.158
886.816,0.158
887.122,0.158
887.427,0.158
887.732,0.158
888.037,0.159
888.342,0.159
888.647,0.159
888.952,0.16
889.257,0.16
889.562,0.16
889.867,0.161
890.172,0.16
890.476,0.161
890.781,0.161
891.086,0.162
891.39,0.162
891.695,0.163
891.999,0.163
892.304,0.163
892.608,0.163
892.912,0.163
893.217,0.163
893.521,0.163
893.825,0.163
894.129,0.163
894.433,0.163
894.737,0.163
895.041,0.164
895.345,0.164
895.649,0.164
895.952,0.165
896.256,0.166
896.56,0.166
896.863,0.167
897.167,0.167
897.47,0.167
897.774,0.166
898.077,0.166
898.38,0.166
898.684,0.166
898.987,0.165
899.29,0.165
899.593,0.165
899.896,0.165
900.199,0.165
900.502,0.164
900.805,0.164
901.108,0.164
901.411,0.164
901.714,0.164
902.016,0.163
902.319,0.163
902.622,0.163
902.924,0.163
903.227,0.163
903.529,0.163
903.831,0.163
904.134,0.162
904.436,0.162
904.738,0.163
905.04,0.163
905.343,0.164
905.645,0.164
905.947,0.164
906.249,0.165
906.55,0.165
906.852,0.165
907.154,0.165
907.456,0.165
907.758,0.164
908.059,0.164
908.361,0.164
908.662,0.163
908.964,0.162
909.265,0.162
909.567,0.162
909.868,0.162
910.169,0.162
910.47,0.162
910.771,0.162
911.073,0.163
911.374,0.163
911.675,0.163
911.975,0.163
912.276,0.163
912.577,0.163
912.878,0.163
913.179,0.163
913.479,0.163
913.78,0.163
914.081,0.163
914.381,0.163
914.682,0.163
914.982,0.164
915.282,0.164
915.583,0.164
915.883,0.165
916.183,0.165
916.483,0.165
916.783,0.165
917.083,0.166
917.383,0.166
917.683,0.166
917.983,0.166
918.283,0.166
918.583,0.166
918.882,0.166
919.182,0.166
919.482,0.166
919.781,0.166
920.081,0.166
920.38,0.166
920.679,0.167
920.979,0.167
921.278,0.168
921.577,0.169
921.876,0.169
922.175,0.169
922.475,0.17
922.774,0.17
923.073,0.171
923.371,0.172
923.67,0.173
923.969,0.173
924.268,0.174
924.566,0.174
924.865,0.174
925.164,0.175
925.462,0.175
925.761,0.176
926.059,0.177
926.357,0.177
926.656,0.178
926.954,0.178
927.252,0.178
927.55,0.178
927.848,0.177
928.146,0.177
928.444,0.178
928.742,0.178
929.04,0.179
929.338,0.179
929.636,0.179
929.934,0.178
930.231,0.179
930.529,0.179
930.826,0.18
931.124,0.181
931.421,0.182
931.719,0.182
932.016,0.183
932.313,0.184
932.611,0.185
932.908,0.186
933.205,0.186
933.502,0.187
933.799,0.187
934.096,0.188
934.393,0.188
934.69,0.189
934.986,0.19
935.283,0.19
935.58,0.19
935.877,0.19
936.173,0.19
936.47,0.191
936.766,0.191
937.063,0.193
937.359,0.193
937.655,0.194
937.951,0.194
938.248,0.194
938.544,0.195
938.84,0.195
939.136,0.197
939.432,0.198
939.728,0.2
940.024,0.202
940.32,0.203
940.615,0.205
940.911,0.205
941.207,0.205
941.502,0.206
941.798,0.207
942.093,0.208
942.389,0.207
942.684,0.207
942.98,0.208
943.275,0.209
943.57,0.209
943.865,0.21
944.16,0.21
944.455,0.21
944.75,0.212
945.045,0.213
945.34,0.212
945.635,0.213
945.93,0.212
946.225,0.213
946.519,0.212
946.814,0.213
947.109,0.213
947.403,0.213
947.698,0.213
947.992,0.212
948.286,0.212
948.581,0.211
948.875,0.211
949.169,0.21
949.463,0.21
949.757,0.21
950.051,0.209
950.345,0.209
950.639,0.21
950.933,0.21
951.227,0.209
951.521,0.209
951.814,0.209
952.108,0.208
952.402,0.208
952.695,0.208
952.989,0.208
953.282,0.209
953.575,0.208
953.869,0.208
954.162,0.209
954.455,0.21
954.748,0.209
955.042,0.209
955.335,0.208
955.628,0.208
955.921,0.208
956.213,0.208
956.506,0.208
956.799,0.207
957.092,0.207
957.384,0.208
957.677,0.207
957.97,0.208
958.262,0.208
958.555,0.209
958.847,0.208
959.139,0.209
959.432,0.21
959.724,0.209
960.016,0.21
960.308,0.21
960.6,0.21
960.892,0.211
961.184,0.211
961.476,0.211
961.768,0.211
962.06,0.212
962.352,0.212
962.643,0.213
962.935,0.213
963.226,0.213
963.518,0.214
963.809,0.214
964.101,0.215
964.392,0.215
964.683,0.215
964.975,0.216
965.266,0.216
965.557,0.217
965.848,0.218
966.139,0.217
966.43,0.218
966.721,0.219
967.012,0.22
967.303,0.221
967.594,0.222
967.884,0.223
968.175,0.224
968.465,0.225
968.756,0.225
969.046,0.226
969.337,0.226
969.627,0.227
969.918,0.226
970.208,0.226
970.498,0.227
970.788,0.228
971.078,0.229
971.368,0.228
971.658,0.23
971.948,0.231
972.238,0.232
972.528,0.232
972.818,0.232
973.107,0.232
973.397,0.233
973.687,0.234
973.976,0.234
974.266,0.233
974.555,0.233
974.845,0.234
975.134,0.234
975.423,0.235
975.712,0.235
976.002,0.235
976.291,0.237
976.58,0.238
976.869,0.241
977.158,0.242
977.447,0.243
977.735,0.243
978.024,0.245
978.313,0.244
978.602,0.244
978.89,0.246
979.179,0.247
979.467,0.247
979.756,0.247
980.044,0.247
980.332,0.248
980.621,0.248
980.909,0.247
981.197,0.247
981.485,0.248
981.773,0.251
982.061,0.25
982.349,0.25
982.637,0.25
982.925,0.25
983.213,0.251
983.501,0.251
983.788,0.249
984.076,0.25
984.363,0.25
984.651,0.251
984.938,0.253
985.226,0.255
985.513,0.255
985.8,0.256
986.088,0.259
986.375,0.258
986.662,0.26
986.949,0.265
987.236,0.264
987.523,0.267
987.81,0.269
988.097,0.269
988.384,0.267
988.67,0.264
988.957,0.265
989.244,0.265
989.53,0.267
989.817,0.267
990.103,0.273
990.39,0.278
990.676,0.277
990.962,0.279
991.248,0.28
991.535,0.282
991.821,0.286
992.107,0.287
992.393,0.288
992.679,0.295
992.965,0.295
993.251,0.299
993.536,0.3
993.822,0.308
994.108,0.313
994.393,0.312
994.679,0.311
994.964,0.31
995.25,0.308
995.535,0.313
995.821,0.316
996.106,0.32
996.391,0.321
996.676,0.321
996.962,0.321
997.247,0.326
997.532,0.332
997.817,0.332
998.102,0.339
998.386,0.342
998.671,0.334
998.956,0.338
999.241,0.333
999.525,0.336
999.81,0.34
1000.094,0.347
1000.379,0.349
1000.663,0.355
1000.948,0.355
1001.232,0.353
1001.516,0.36
1001.8,0.353
1002.084,0.352
1002.369,0.353
1002.653,0.36
1002.936,0.364
1003.22,0.365
1003.504,0.363
1003.788,0.367
1004.072,0.377
1004.355,0.366
1004.639,0.375
1004.923,0.369
1005.206,0.375
1005.49,0.377
1005.773,0.376
1006.056,0.385
1006.34,0.383
1006.623,0.399
1006.906,0.416
1007.189,0.42
1007.472,0.417
1007.755,0.426
1008.038,0.431
1008.321,0.436
1008.604,0.441
1008.887,0.447
1009.17,0.452
1009.452,0.456
1009.735,0.445
1010.017,0.453
1010.3,0.485
1010.582,0.5
1010.865,0.517
1011.147,0.52
1011.429,0.522
1011.712,0.522
1011.994,0.521
1012.276,0.509
1012.558,0.514
1012.84,0.515
1013.122,0.508
1013.404,0.519
1013.686,0.514
1013.968,0.532
1014.249,0.528
1014.531,0.534
1014.813,0.542
1015.094,0.555
1015.376,0.555
1015.657,0.538
1015.939,0.549
1016.22,0.552
1016.501,0.559
1016.782,0.554
1017.064,0.548
1017.345,0.55
1017.626,0.549
1017.907,0.571
1018.188,0.559
1018.469,0.548
1018.749,0.549
1019.03,0.561
1019.311,0.554
1019.592,0.549
1019.872,0.561
1020.153,0.564
1020.433,0.554
1020.714,0.54
1020.994,0.548
1021.274,0.57
1021.555,0.563
